subj_id,date,experimenter,computer,block_ix,trial_ix,sound_id,word,sound_category,word_category,word_type,correct_response,response,rt,is_correct
LSN102,2016_Nov_21_1046,,LL-Kramer,1,1,40,taateh,tear,glass,first_gen_imitation,0,1,3614.47781185,False
LSN102,2016_Nov_21_1046,,LL-Kramer,1,2,34,taateh,glass,glass,first_gen_imitation,1,0,2311.4619609,False
LSN102,2016_Nov_21_1046,,LL-Kramer,1,3,40,phfffft,tear,tear,first_gen_imitation,1,1,2092.05994569,True
LSN102,2016_Nov_21_1046,,LL-Kramer,1,4,34,phfffft,glass,tear,first_gen_imitation,0,0,1848.86785597,True
LSN102,2016_Nov_21_1046,,LL-Kramer,1,5,40,phfffft,tear,tear,first_gen_imitation,1,0,3346.48417449,False
LSN102,2016_Nov_21_1046,,LL-Kramer,1,6,40,taateh,tear,glass,first_gen_imitation,0,1,5798.65019675,False
LSN102,2016_Nov_21_1046,,LL-Kramer,1,7,40,phfffft,tear,tear,first_gen_imitation,1,1,2650.31656483,True
LSN102,2016_Nov_21_1046,,LL-Kramer,1,8,48,zerp,zipper,zipper,first_gen_imitation,1,0,2738.93750645,False
LSN102,2016_Nov_21_1046,,LL-Kramer,1,9,40,phfffft,tear,tear,first_gen_imitation,1,0,1289.24286878,False
LSN102,2016_Nov_21_1046,,LL-Kramer,1,10,45,zerp,water,zipper,first_gen_imitation,0,1,1776.08957281,False
LSN102,2016_Nov_21_1046,,LL-Kramer,1,11,45,fshfshfsh,water,water,first_gen_imitation,1,1,1317.37651071,True
LSN102,2016_Nov_21_1046,,LL-Kramer,1,12,34,taateh,glass,glass,first_gen_imitation,1,1,1415.36252946,True
LSN102,2016_Nov_21_1046,,LL-Kramer,1,13,48,taateh,zipper,glass,first_gen_imitation,0,1,2151.26722027,False
LSN102,2016_Nov_21_1046,,LL-Kramer,1,14,48,taateh,zipper,glass,first_gen_imitation,0,0,1020.59977734,True
LSN102,2016_Nov_21_1046,,LL-Kramer,1,15,34,phfffft,glass,tear,first_gen_imitation,0,0,1610.30741083,True
LSN102,2016_Nov_21_1046,,LL-Kramer,1,16,48,taateh,zipper,glass,first_gen_imitation,0,1,2047.57374758,False
LSN102,2016_Nov_21_1046,,LL-Kramer,1,17,48,phfffft,zipper,tear,first_gen_imitation,0,0,7215.98861786,True
LSN102,2016_Nov_21_1046,,LL-Kramer,1,18,48,zerp,zipper,zipper,first_gen_imitation,1,1,2613.41992719,True
LSN102,2016_Nov_21_1046,,LL-Kramer,1,19,45,fshfshfsh,water,water,first_gen_imitation,1,1,1105.20523926,True
LSN102,2016_Nov_21_1046,,LL-Kramer,1,20,34,fshfshfsh,glass,water,first_gen_imitation,0,0,1038.8994161,True
LSN102,2016_Nov_21_1046,,LL-Kramer,1,21,45,fshfshfsh,water,water,first_gen_imitation,1,1,702.693844214,True
LSN102,2016_Nov_21_1046,,LL-Kramer,1,22,34,phfffft,glass,tear,first_gen_imitation,0,0,2220.69228208,True
LSN102,2016_Nov_21_1046,,LL-Kramer,1,23,45,fshfshfsh,water,water,first_gen_imitation,1,1,605.542289559,True
LSN102,2016_Nov_21_1046,,LL-Kramer,1,24,45,phfffft,water,tear,first_gen_imitation,0,1,681.904255878,False
LSN102,2016_Nov_21_1046,,LL-Kramer,2,25,35,phfffft,glass,tear,first_gen_imitation,0,0,2467.19502192,True
LSN102,2016_Nov_21_1046,,LL-Kramer,2,26,47,zerp,zipper,zipper,first_gen_imitation,1,1,1526.23457182,True
LSN102,2016_Nov_21_1046,,LL-Kramer,2,27,47,phfffft,zipper,tear,first_gen_imitation,0,0,1997.47228064,True
LSN102,2016_Nov_21_1046,,LL-Kramer,2,28,35,taateh,glass,glass,first_gen_imitation,1,0,2765.78984456,False
LSN102,2016_Nov_21_1046,,LL-Kramer,2,29,44,zerp,water,zipper,first_gen_imitation,0,0,3856.75989743,True
LSN102,2016_Nov_21_1046,,LL-Kramer,2,30,47,phfffft,zipper,tear,first_gen_imitation,0,0,1214.89776438,True
LSN102,2016_Nov_21_1046,,LL-Kramer,2,31,44,fshfshfsh,water,water,first_gen_imitation,1,1,1181.59697345,True
LSN102,2016_Nov_21_1046,,LL-Kramer,2,32,41,fshfshfsh,tear,water,first_gen_imitation,0,0,1834.7290149,True
LSN102,2016_Nov_21_1046,,LL-Kramer,2,33,47,phfffft,zipper,tear,first_gen_imitation,0,0,938.759538345,True
LSN102,2016_Nov_21_1046,,LL-Kramer,2,34,35,zerp,glass,zipper,first_gen_imitation,0,0,1893.08774192,True
LSN102,2016_Nov_21_1046,,LL-Kramer,2,35,35,phfffft,glass,tear,first_gen_imitation,0,0,1738.557884,True
LSN102,2016_Nov_21_1046,,LL-Kramer,2,36,41,taateh,tear,glass,first_gen_imitation,0,0,1167.26352042,True
LSN102,2016_Nov_21_1046,,LL-Kramer,2,37,35,taateh,glass,glass,first_gen_imitation,1,1,942.69019505,True
LSN102,2016_Nov_21_1046,,LL-Kramer,2,38,41,phfffft,tear,tear,first_gen_imitation,1,0,1853.06162294,False
LSN102,2016_Nov_21_1046,,LL-Kramer,2,39,41,phfffft,tear,tear,first_gen_imitation,1,1,914.372823667,True
LSN102,2016_Nov_21_1046,,LL-Kramer,2,40,41,phfffft,tear,tear,first_gen_imitation,1,1,735.64190045,True
LSN102,2016_Nov_21_1046,,LL-Kramer,2,41,47,zerp,zipper,zipper,first_gen_imitation,1,1,906.176700257,True
LSN102,2016_Nov_21_1046,,LL-Kramer,2,42,47,fshfshfsh,zipper,water,first_gen_imitation,0,0,1449.28972935,True
LSN102,2016_Nov_21_1046,,LL-Kramer,2,43,44,fshfshfsh,water,water,first_gen_imitation,1,1,926.820969675,True
LSN102,2016_Nov_21_1046,,LL-Kramer,2,44,44,zerp,water,zipper,first_gen_imitation,0,1,323.777271435,False
LSN102,2016_Nov_21_1046,,LL-Kramer,2,45,41,zerp,tear,zipper,first_gen_imitation,0,1,1096.25019226,False
LSN102,2016_Nov_21_1046,,LL-Kramer,2,46,44,zerp,water,zipper,first_gen_imitation,0,0,1609.76134427,True
LSN102,2016_Nov_21_1046,,LL-Kramer,2,47,35,zerp,glass,zipper,first_gen_imitation,0,0,1194.36168438,True
LSN102,2016_Nov_21_1046,,LL-Kramer,2,48,44,zerp,water,zipper,first_gen_imitation,0,0,1085.07022727,True
LSN102,2016_Nov_21_1046,,LL-Kramer,3,49,46,phfffft,zipper,tear,first_gen_imitation,0,0,1488.25284233,True
LSN102,2016_Nov_21_1046,,LL-Kramer,3,50,43,fshfshfsh,water,water,first_gen_imitation,1,1,1064.63017222,True
LSN102,2016_Nov_21_1046,,LL-Kramer,3,51,38,fshfshfsh,tear,water,first_gen_imitation,0,0,1449.06822918,True
LSN102,2016_Nov_21_1046,,LL-Kramer,3,52,37,zerp,glass,zipper,first_gen_imitation,0,0,1075.71251178,True
LSN102,2016_Nov_21_1046,,LL-Kramer,3,53,38,zerp,tear,zipper,first_gen_imitation,0,0,1913.46281907,True
LSN102,2016_Nov_21_1046,,LL-Kramer,3,54,38,phfffft,tear,tear,first_gen_imitation,1,1,5475.40778993,True
LSN102,2016_Nov_21_1046,,LL-Kramer,3,55,43,fshfshfsh,water,water,first_gen_imitation,1,1,806.792225689,True
LSN102,2016_Nov_21_1046,,LL-Kramer,3,56,46,zerp,zipper,zipper,first_gen_imitation,1,1,816.847728565,True
LSN102,2016_Nov_21_1046,,LL-Kramer,3,57,38,phfffft,tear,tear,first_gen_imitation,1,1,992.856319528,True
LSN102,2016_Nov_21_1046,,LL-Kramer,3,58,37,taateh,glass,glass,first_gen_imitation,1,1,949.540996924,True
LSN102,2016_Nov_21_1046,,LL-Kramer,3,59,46,zerp,zipper,zipper,first_gen_imitation,1,1,2489.39715,True
LSN102,2016_Nov_21_1046,,LL-Kramer,3,60,43,fshfshfsh,water,water,first_gen_imitation,1,1,917.013532948,True
LSN102,2016_Nov_21_1046,,LL-Kramer,3,61,46,fshfshfsh,zipper,water,first_gen_imitation,0,0,973.372362554,True
LSN102,2016_Nov_21_1046,,LL-Kramer,3,62,38,phfffft,tear,tear,first_gen_imitation,1,1,699.720884673,True
LSN102,2016_Nov_21_1046,,LL-Kramer,3,63,43,fshfshfsh,water,water,first_gen_imitation,1,1,790.413103066,True
LSN102,2016_Nov_21_1046,,LL-Kramer,3,64,43,zerp,water,zipper,first_gen_imitation,0,0,1248.69660987,True
LSN102,2016_Nov_21_1046,,LL-Kramer,3,65,46,taateh,zipper,glass,first_gen_imitation,0,0,1048.51992242,True
LSN102,2016_Nov_21_1046,,LL-Kramer,3,66,37,zerp,glass,zipper,first_gen_imitation,0,0,914.623770863,True
LSN102,2016_Nov_21_1046,,LL-Kramer,3,67,46,taateh,zipper,glass,first_gen_imitation,0,0,1472.36057092,True
LSN102,2016_Nov_21_1046,,LL-Kramer,3,68,38,phfffft,tear,tear,first_gen_imitation,1,1,1843.59315783,True
LSN102,2016_Nov_21_1046,,LL-Kramer,3,69,37,phfffft,glass,tear,first_gen_imitation,0,0,1024.68855632,True
LSN102,2016_Nov_21_1046,,LL-Kramer,3,70,37,taateh,glass,glass,first_gen_imitation,1,1,2904.84930342,True
LSN102,2016_Nov_21_1046,,LL-Kramer,3,71,43,zerp,water,zipper,first_gen_imitation,0,0,1022.41210453,True
LSN102,2016_Nov_21_1046,,LL-Kramer,3,72,37,taateh,glass,glass,first_gen_imitation,1,1,2015.39485808,True
LSN102,2016_Nov_21_1046,,LL-Kramer,4,73,39,fshfshfsh,tear,water,first_gen_imitation,0,0,5393.61780463,True
LSN102,2016_Nov_21_1046,,LL-Kramer,4,74,49,zerp,zipper,zipper,first_gen_imitation,1,1,1262.97980873,True
LSN102,2016_Nov_21_1046,,LL-Kramer,4,75,36,taateh,glass,glass,first_gen_imitation,1,0,916.895741597,False
LSN102,2016_Nov_21_1046,,LL-Kramer,4,76,49,zerp,zipper,zipper,first_gen_imitation,1,1,916.406009812,True
LSN102,2016_Nov_21_1046,,LL-Kramer,4,77,39,phfffft,tear,tear,first_gen_imitation,1,1,1073.70013092,True
LSN102,2016_Nov_21_1046,,LL-Kramer,4,78,36,taateh,glass,glass,first_gen_imitation,1,1,2115.62083894,True
LSN102,2016_Nov_21_1046,,LL-Kramer,4,79,49,zerp,zipper,zipper,first_gen_imitation,1,1,3599.11848325,True
LSN102,2016_Nov_21_1046,,LL-Kramer,4,80,39,phfffft,tear,tear,first_gen_imitation,1,1,832.7179146,True
LSN102,2016_Nov_21_1046,,LL-Kramer,4,81,39,zerp,tear,zipper,first_gen_imitation,0,0,580.278538633,True
LSN102,2016_Nov_21_1046,,LL-Kramer,4,82,36,zerp,glass,zipper,first_gen_imitation,0,0,1698.81408103,True
LSN102,2016_Nov_21_1046,,LL-Kramer,4,83,36,zerp,glass,zipper,first_gen_imitation,0,0,1058.9630492,True
LSN102,2016_Nov_21_1046,,LL-Kramer,4,84,39,taateh,tear,glass,first_gen_imitation,0,0,1747.74819473,True
LSN102,2016_Nov_21_1046,,LL-Kramer,4,85,36,taateh,glass,glass,first_gen_imitation,1,1,3655.18315323,True
LSN102,2016_Nov_21_1046,,LL-Kramer,4,86,42,fshfshfsh,water,water,first_gen_imitation,1,1,684.045951348,True
LSN102,2016_Nov_21_1046,,LL-Kramer,4,87,36,zerp,glass,zipper,first_gen_imitation,0,0,984.735736623,True
LSN102,2016_Nov_21_1046,,LL-Kramer,4,88,42,fshfshfsh,water,water,first_gen_imitation,1,1,1197.59871438,True
LSN102,2016_Nov_21_1046,,LL-Kramer,4,89,42,phfffft,water,tear,first_gen_imitation,0,0,1248.13933996,True
LSN102,2016_Nov_21_1046,,LL-Kramer,4,90,39,zerp,tear,zipper,first_gen_imitation,0,0,1799.19562349,True
LSN102,2016_Nov_21_1046,,LL-Kramer,4,91,49,zerp,zipper,zipper,first_gen_imitation,1,1,1828.1944585,True
LSN102,2016_Nov_21_1046,,LL-Kramer,4,92,42,phfffft,water,tear,first_gen_imitation,0,0,2685.31925371,True
LSN102,2016_Nov_21_1046,,LL-Kramer,4,93,42,fshfshfsh,water,water,first_gen_imitation,1,1,726.630838122,True
LSN102,2016_Nov_21_1046,,LL-Kramer,4,94,42,fshfshfsh,water,water,first_gen_imitation,1,1,912.625473458,True
LSN102,2016_Nov_21_1046,,LL-Kramer,4,95,49,zerp,zipper,zipper,first_gen_imitation,1,1,1571.47393189,True
LSN102,2016_Nov_21_1046,,LL-Kramer,4,96,49,zerp,zipper,zipper,first_gen_imitation,1,1,892.866562586,True
