subj_id,date,experimenter,computer,block_ix,trial_ix,sound_id,word,sound_category,word_category,word_type,correct_response,response,rt,is_correct
LSN169,2016_Dec_09_1400,,LL-George,1,1,46,sheah,zipper,tear,last_gen_imitation,0,1,8438.58637195,False
LSN169,2016_Dec_09_1400,,LL-George,1,2,37,dundunduh,glass,glass,last_gen_imitation,1,0,1844.00382824,False
LSN169,2016_Dec_09_1400,,LL-George,1,3,45,everlutia,water,water,last_gen_imitation,1,1,3452.47810613,True
LSN169,2016_Dec_09_1400,,LL-George,1,4,45,everlutia,water,water,last_gen_imitation,1,1,647.274787538,True
LSN169,2016_Dec_09_1400,,LL-George,1,5,45,everlutia,water,water,last_gen_imitation,1,1,418.1645629,True
LSN169,2016_Dec_09_1400,,LL-George,1,6,45,everlutia,water,water,last_gen_imitation,1,1,486.122029833,True
LSN169,2016_Dec_09_1400,,LL-George,1,7,41,everlutia,tear,water,last_gen_imitation,0,0,934.436456766,True
LSN169,2016_Dec_09_1400,,LL-George,1,8,41,sheah,tear,tear,last_gen_imitation,1,1,1128.86952003,True
LSN169,2016_Dec_09_1400,,LL-George,1,9,41,dundunduh,tear,glass,last_gen_imitation,0,0,1232.70223057,True
LSN169,2016_Dec_09_1400,,LL-George,1,10,37,dundunduh,glass,glass,last_gen_imitation,1,1,928.949861322,True
LSN169,2016_Dec_09_1400,,LL-George,1,11,37,dundunduh,glass,glass,last_gen_imitation,1,1,928.268718999,True
LSN169,2016_Dec_09_1400,,LL-George,1,12,46,dundunduh,zipper,glass,last_gen_imitation,0,0,1064.535107,True
LSN169,2016_Dec_09_1400,,LL-George,1,13,41,sheah,tear,tear,last_gen_imitation,1,1,812.974047381,True
LSN169,2016_Dec_09_1400,,LL-George,1,14,37,sheah,glass,tear,last_gen_imitation,0,0,707.657418214,True
LSN169,2016_Dec_09_1400,,LL-George,1,15,37,sheah,glass,tear,last_gen_imitation,0,0,699.21642961,True
LSN169,2016_Dec_09_1400,,LL-George,1,16,45,everlutia,water,water,last_gen_imitation,1,1,665.151272435,True
LSN169,2016_Dec_09_1400,,LL-George,1,17,46,bizz,zipper,zipper,last_gen_imitation,1,1,1688.93110473,True
LSN169,2016_Dec_09_1400,,LL-George,1,18,37,sheah,glass,tear,last_gen_imitation,0,0,660.286604892,True
LSN169,2016_Dec_09_1400,,LL-George,1,19,45,everlutia,water,water,last_gen_imitation,1,1,804.138712119,True
LSN169,2016_Dec_09_1400,,LL-George,1,20,46,everlutia,zipper,water,last_gen_imitation,0,0,1890.01459582,True
LSN169,2016_Dec_09_1400,,LL-George,1,21,41,sheah,tear,tear,last_gen_imitation,1,0,2054.7824055,False
LSN169,2016_Dec_09_1400,,LL-George,1,22,46,bizz,zipper,zipper,last_gen_imitation,1,1,540.327319875,True
LSN169,2016_Dec_09_1400,,LL-George,1,23,46,bizz,zipper,zipper,last_gen_imitation,1,1,392.942102626,True
LSN169,2016_Dec_09_1400,,LL-George,1,24,41,sheah,tear,tear,last_gen_imitation,1,1,1010.56988118,True
LSN169,2016_Dec_09_1400,,LL-George,2,25,35,everlutia,glass,water,last_gen_imitation,0,0,978.715558536,True
LSN169,2016_Dec_09_1400,,LL-George,2,26,44,everlutia,water,water,last_gen_imitation,1,1,338.843080681,True
LSN169,2016_Dec_09_1400,,LL-George,2,27,40,bizz,tear,zipper,last_gen_imitation,0,0,1084.06995796,True
LSN169,2016_Dec_09_1400,,LL-George,2,28,40,everlutia,tear,water,last_gen_imitation,0,0,867.34418245,True
LSN169,2016_Dec_09_1400,,LL-George,2,29,49,bizz,zipper,zipper,last_gen_imitation,1,1,629.418467637,True
LSN169,2016_Dec_09_1400,,LL-George,2,30,35,bizz,glass,zipper,last_gen_imitation,0,0,919.677929487,True
LSN169,2016_Dec_09_1400,,LL-George,2,31,44,sheah,water,tear,last_gen_imitation,0,0,565.353887156,True
LSN169,2016_Dec_09_1400,,LL-George,2,32,49,bizz,zipper,zipper,last_gen_imitation,1,1,779.61980179,True
LSN169,2016_Dec_09_1400,,LL-George,2,33,44,everlutia,water,water,last_gen_imitation,1,1,734.801354352,True
LSN169,2016_Dec_09_1400,,LL-George,2,34,49,bizz,zipper,zipper,last_gen_imitation,1,1,1945.19870961,True
LSN169,2016_Dec_09_1400,,LL-George,2,35,40,sheah,tear,tear,last_gen_imitation,1,1,1095.11260642,True
LSN169,2016_Dec_09_1400,,LL-George,2,36,49,dundunduh,zipper,glass,last_gen_imitation,0,0,917.470936198,True
LSN169,2016_Dec_09_1400,,LL-George,2,37,44,dundunduh,water,glass,last_gen_imitation,0,0,707.477849908,True
LSN169,2016_Dec_09_1400,,LL-George,2,38,49,bizz,zipper,zipper,last_gen_imitation,1,1,1171.32093105,True
LSN169,2016_Dec_09_1400,,LL-George,2,39,49,bizz,zipper,zipper,last_gen_imitation,1,1,428.089470603,True
LSN169,2016_Dec_09_1400,,LL-George,2,40,44,everlutia,water,water,last_gen_imitation,1,1,357.662219554,True
LSN169,2016_Dec_09_1400,,LL-George,2,41,40,sheah,tear,tear,last_gen_imitation,1,1,714.567435905,True
LSN169,2016_Dec_09_1400,,LL-George,2,42,35,bizz,glass,zipper,last_gen_imitation,0,0,833.444189746,True
LSN169,2016_Dec_09_1400,,LL-George,2,43,35,dundunduh,glass,glass,last_gen_imitation,1,1,2302.46178154,True
LSN169,2016_Dec_09_1400,,LL-George,2,44,35,everlutia,glass,water,last_gen_imitation,0,0,749.600532465,True
LSN169,2016_Dec_09_1400,,LL-George,2,45,40,sheah,tear,tear,last_gen_imitation,1,1,688.935585786,True
LSN169,2016_Dec_09_1400,,LL-George,2,46,44,bizz,water,zipper,last_gen_imitation,0,0,555.428979453,True
LSN169,2016_Dec_09_1400,,LL-George,2,47,40,dundunduh,tear,glass,last_gen_imitation,0,0,703.50622246,True
LSN169,2016_Dec_09_1400,,LL-George,2,48,35,dundunduh,glass,glass,last_gen_imitation,1,1,4193.50609463,True
LSN169,2016_Dec_09_1400,,LL-George,3,49,47,dundunduh,zipper,glass,last_gen_imitation,0,0,788.271087222,True
LSN169,2016_Dec_09_1400,,LL-George,3,50,42,sheah,water,tear,last_gen_imitation,0,0,658.909595106,True
LSN169,2016_Dec_09_1400,,LL-George,3,51,36,dundunduh,glass,glass,last_gen_imitation,1,1,1835.04269924,True
LSN169,2016_Dec_09_1400,,LL-George,3,52,38,bizz,tear,zipper,last_gen_imitation,0,0,1077.1122477,True
LSN169,2016_Dec_09_1400,,LL-George,3,53,38,sheah,tear,tear,last_gen_imitation,1,1,2696.3580614,True
LSN169,2016_Dec_09_1400,,LL-George,3,54,42,everlutia,water,water,last_gen_imitation,1,1,364.157085307,True
LSN169,2016_Dec_09_1400,,LL-George,3,55,36,everlutia,glass,water,last_gen_imitation,0,0,757.156483363,True
LSN169,2016_Dec_09_1400,,LL-George,3,56,38,sheah,tear,tear,last_gen_imitation,1,1,1717.11500036,True
LSN169,2016_Dec_09_1400,,LL-George,3,57,36,everlutia,glass,water,last_gen_imitation,0,0,2689.24767012,True
LSN169,2016_Dec_09_1400,,LL-George,3,58,47,bizz,zipper,zipper,last_gen_imitation,1,1,506.597293541,True
LSN169,2016_Dec_09_1400,,LL-George,3,59,42,bizz,water,zipper,last_gen_imitation,0,0,905.072723515,True
LSN169,2016_Dec_09_1400,,LL-George,3,60,47,everlutia,zipper,water,last_gen_imitation,0,0,885.293647181,True
LSN169,2016_Dec_09_1400,,LL-George,3,61,38,dundunduh,tear,glass,last_gen_imitation,0,0,1042.06122644,True
LSN169,2016_Dec_09_1400,,LL-George,3,62,47,bizz,zipper,zipper,last_gen_imitation,1,1,597.582070157,True
LSN169,2016_Dec_09_1400,,LL-George,3,63,42,everlutia,water,water,last_gen_imitation,1,1,308.642962947,True
LSN169,2016_Dec_09_1400,,LL-George,3,64,38,dundunduh,tear,glass,last_gen_imitation,0,0,772.619840223,True
LSN169,2016_Dec_09_1400,,LL-George,3,65,38,everlutia,tear,water,last_gen_imitation,0,0,757.558191661,True
LSN169,2016_Dec_09_1400,,LL-George,3,66,47,bizz,zipper,zipper,last_gen_imitation,1,1,524.972472806,True
LSN169,2016_Dec_09_1400,,LL-George,3,67,47,dundunduh,zipper,glass,last_gen_imitation,0,0,771.281560417,True
LSN169,2016_Dec_09_1400,,LL-George,3,68,36,sheah,glass,tear,last_gen_imitation,0,0,618.615883868,True
LSN169,2016_Dec_09_1400,,LL-George,3,69,42,sheah,water,tear,last_gen_imitation,0,0,559.608342592,True
LSN169,2016_Dec_09_1400,,LL-George,3,70,36,sheah,glass,tear,last_gen_imitation,0,0,647.985058371,True
LSN169,2016_Dec_09_1400,,LL-George,3,71,42,dundunduh,water,glass,last_gen_imitation,0,0,971.980308183,True
LSN169,2016_Dec_09_1400,,LL-George,3,72,36,dundunduh,glass,glass,last_gen_imitation,1,0,882.100468501,False
LSN169,2016_Dec_09_1400,,LL-George,4,73,48,bizz,zipper,zipper,last_gen_imitation,1,1,975.545426365,True
LSN169,2016_Dec_09_1400,,LL-George,4,74,39,dundunduh,tear,glass,last_gen_imitation,0,0,573.371402454,True
LSN169,2016_Dec_09_1400,,LL-George,4,75,34,dundunduh,glass,glass,last_gen_imitation,1,1,738.354309928,True
LSN169,2016_Dec_09_1400,,LL-George,4,76,39,dundunduh,tear,glass,last_gen_imitation,0,0,600.877355784,True
LSN169,2016_Dec_09_1400,,LL-George,4,77,48,sheah,zipper,tear,last_gen_imitation,0,1,1270.96243482,False
LSN169,2016_Dec_09_1400,,LL-George,4,78,34,everlutia,glass,water,last_gen_imitation,0,0,742.839995306,True
LSN169,2016_Dec_09_1400,,LL-George,4,79,34,dundunduh,glass,glass,last_gen_imitation,1,0,423.026029486,False
LSN169,2016_Dec_09_1400,,LL-George,4,80,39,bizz,tear,zipper,last_gen_imitation,0,0,4224.61589659,True
LSN169,2016_Dec_09_1400,,LL-George,4,81,34,dundunduh,glass,glass,last_gen_imitation,1,1,418.806655332,True
LSN169,2016_Dec_09_1400,,LL-George,4,82,48,bizz,zipper,zipper,last_gen_imitation,1,1,658.374730963,True
LSN169,2016_Dec_09_1400,,LL-George,4,83,39,sheah,tear,tear,last_gen_imitation,1,1,434.154781047,True
LSN169,2016_Dec_09_1400,,LL-George,4,84,43,everlutia,water,water,last_gen_imitation,1,1,390.98829776,True
LSN169,2016_Dec_09_1400,,LL-George,4,85,34,bizz,glass,zipper,last_gen_imitation,0,0,920.853605494,True
LSN169,2016_Dec_09_1400,,LL-George,4,86,48,bizz,zipper,zipper,last_gen_imitation,1,1,786.075937096,True
LSN169,2016_Dec_09_1400,,LL-George,4,87,48,everlutia,zipper,water,last_gen_imitation,0,0,677.011740394,True
LSN169,2016_Dec_09_1400,,LL-George,4,88,43,sheah,water,tear,last_gen_imitation,0,0,1161.06633469,True
LSN169,2016_Dec_09_1400,,LL-George,4,89,39,bizz,tear,zipper,last_gen_imitation,0,0,1124.6808744,True
LSN169,2016_Dec_09_1400,,LL-George,4,90,43,dundunduh,water,glass,last_gen_imitation,0,0,693.721832708,True
LSN169,2016_Dec_09_1400,,LL-George,4,91,34,dundunduh,glass,glass,last_gen_imitation,1,1,646.393270697,True
LSN169,2016_Dec_09_1400,,LL-George,4,92,43,sheah,water,tear,last_gen_imitation,0,0,558.438108303,True
LSN169,2016_Dec_09_1400,,LL-George,4,93,43,dundunduh,water,glass,last_gen_imitation,0,0,1158.56070118,True
LSN169,2016_Dec_09_1400,,LL-George,4,94,39,sheah,tear,tear,last_gen_imitation,1,1,639.138520695,True
LSN169,2016_Dec_09_1400,,LL-George,4,95,43,everlutia,water,water,last_gen_imitation,1,1,364.823184442,True
LSN169,2016_Dec_09_1400,,LL-George,4,96,48,dundunduh,zipper,glass,last_gen_imitation,0,0,1033.99825888,True
