subj_id,date,experimenter,computer,block_ix,trial_ix,sound_id,word,sound_category,word_category,word_type,correct_response,response,rt,is_correct
LSN114,2016_Nov_22_1525,,LL-Kramer,1,1,41,feeshefee,tear,tear,first_gen_imitation,1,0,1430.24589028,False
LSN114,2016_Nov_22_1525,,LL-Kramer,1,2,49,zerp,zipper,zipper,first_gen_imitation,1,1,73.7833529711,True
LSN114,2016_Nov_22_1525,,LL-Kramer,1,3,43,glonglon,water,water,first_gen_imitation,1,1,861.110506579,True
LSN114,2016_Nov_22_1525,,LL-Kramer,1,4,36,boonk,glass,glass,first_gen_imitation,1,0,587.169030681,False
LSN114,2016_Nov_22_1525,,LL-Kramer,1,5,41,feeshefee,tear,tear,first_gen_imitation,1,1,42.6425025798,True
LSN114,2016_Nov_22_1525,,LL-Kramer,1,6,43,glonglon,water,water,first_gen_imitation,1,1,711.364654824,True
LSN114,2016_Nov_22_1525,,LL-Kramer,1,7,41,boonk,tear,glass,first_gen_imitation,0,1,796.914691105,False
LSN114,2016_Nov_22_1525,,LL-Kramer,1,8,36,boonk,glass,glass,first_gen_imitation,1,0,1155.95168015,False
LSN114,2016_Nov_22_1525,,LL-Kramer,1,9,43,boonk,water,glass,first_gen_imitation,0,1,570.737414062,False
LSN114,2016_Nov_22_1525,,LL-Kramer,1,10,49,zerp,zipper,zipper,first_gen_imitation,1,1,1059.12053166,True
LSN114,2016_Nov_22_1525,,LL-Kramer,1,11,49,feeshefee,zipper,tear,first_gen_imitation,0,0,883.197403513,True
LSN114,2016_Nov_22_1525,,LL-Kramer,1,12,43,glonglon,water,water,first_gen_imitation,1,1,1164.1753302,True
LSN114,2016_Nov_22_1525,,LL-Kramer,1,13,41,zerp,tear,zipper,first_gen_imitation,0,0,1306.25800183,True
LSN114,2016_Nov_22_1525,,LL-Kramer,1,14,43,boonk,water,glass,first_gen_imitation,0,1,1081.34826645,False
LSN114,2016_Nov_22_1525,,LL-Kramer,1,15,36,boonk,glass,glass,first_gen_imitation,1,0,1021.67398622,False
LSN114,2016_Nov_22_1525,,LL-Kramer,1,16,36,zerp,glass,zipper,first_gen_imitation,0,0,1066.47738907,True
LSN114,2016_Nov_22_1525,,LL-Kramer,1,17,41,glonglon,tear,water,first_gen_imitation,0,1,1710.43928619,False
LSN114,2016_Nov_22_1525,,LL-Kramer,1,18,49,zerp,zipper,zipper,first_gen_imitation,1,1,497.428108938,True
LSN114,2016_Nov_22_1525,,LL-Kramer,1,19,36,boonk,glass,glass,first_gen_imitation,1,1,1195.17886406,True
LSN114,2016_Nov_22_1525,,LL-Kramer,1,20,41,glonglon,tear,water,first_gen_imitation,0,1,773.140300065,False
LSN114,2016_Nov_22_1525,,LL-Kramer,1,21,49,zerp,zipper,zipper,first_gen_imitation,1,1,493.263789453,True
LSN114,2016_Nov_22_1525,,LL-Kramer,1,22,43,glonglon,water,water,first_gen_imitation,1,1,1208.12442387,True
LSN114,2016_Nov_22_1525,,LL-Kramer,1,23,36,feeshefee,glass,tear,first_gen_imitation,0,1,837.005467154,False
LSN114,2016_Nov_22_1525,,LL-Kramer,1,24,49,glonglon,zipper,water,first_gen_imitation,0,0,2510.13104292,True
LSN114,2016_Nov_22_1525,,LL-Kramer,2,25,40,feeshefee,tear,tear,first_gen_imitation,1,1,856.9273022,True
LSN114,2016_Nov_22_1525,,LL-Kramer,2,26,47,zerp,zipper,zipper,first_gen_imitation,1,0,825.911605265,False
LSN114,2016_Nov_22_1525,,LL-Kramer,2,27,34,boonk,glass,glass,first_gen_imitation,1,0,1671.24411045,False
LSN114,2016_Nov_22_1525,,LL-Kramer,2,28,44,glonglon,water,water,first_gen_imitation,1,1,500.322646461,True
LSN114,2016_Nov_22_1525,,LL-Kramer,2,29,40,feeshefee,tear,tear,first_gen_imitation,1,1,875.781009905,True
LSN114,2016_Nov_22_1525,,LL-Kramer,2,30,34,boonk,glass,glass,first_gen_imitation,1,1,463.535158429,True
LSN114,2016_Nov_22_1525,,LL-Kramer,2,31,40,feeshefee,tear,tear,first_gen_imitation,1,1,632.450962905,True
LSN114,2016_Nov_22_1525,,LL-Kramer,2,32,47,feeshefee,zipper,tear,first_gen_imitation,0,0,866.567973513,True
LSN114,2016_Nov_22_1525,,LL-Kramer,2,33,44,glonglon,water,water,first_gen_imitation,1,1,415.244417731,True
LSN114,2016_Nov_22_1525,,LL-Kramer,2,34,44,zerp,water,zipper,first_gen_imitation,0,0,475.194932427,True
LSN114,2016_Nov_22_1525,,LL-Kramer,2,35,47,zerp,zipper,zipper,first_gen_imitation,1,1,405.69241019,True
LSN114,2016_Nov_22_1525,,LL-Kramer,2,36,34,glonglon,glass,water,first_gen_imitation,0,0,895.254084375,True
LSN114,2016_Nov_22_1525,,LL-Kramer,2,37,44,boonk,water,glass,first_gen_imitation,0,0,933.109059464,True
LSN114,2016_Nov_22_1525,,LL-Kramer,2,38,40,zerp,tear,zipper,first_gen_imitation,0,0,1923.00170287,True
LSN114,2016_Nov_22_1525,,LL-Kramer,2,39,44,zerp,water,zipper,first_gen_imitation,0,0,536.344809458,True
LSN114,2016_Nov_22_1525,,LL-Kramer,2,40,40,feeshefee,tear,tear,first_gen_imitation,1,1,811.93152722,True
LSN114,2016_Nov_22_1525,,LL-Kramer,2,41,47,zerp,zipper,zipper,first_gen_imitation,1,1,387.484315783,True
LSN114,2016_Nov_22_1525,,LL-Kramer,2,42,34,feeshefee,glass,tear,first_gen_imitation,0,0,1079.28851247,True
LSN114,2016_Nov_22_1525,,LL-Kramer,2,43,34,glonglon,glass,water,first_gen_imitation,0,0,793.891477864,True
LSN114,2016_Nov_22_1525,,LL-Kramer,2,44,34,zerp,glass,zipper,first_gen_imitation,0,0,753.2178252,True
LSN114,2016_Nov_22_1525,,LL-Kramer,2,45,47,zerp,zipper,zipper,first_gen_imitation,1,1,384.46622435,True
LSN114,2016_Nov_22_1525,,LL-Kramer,2,46,47,feeshefee,zipper,tear,first_gen_imitation,0,0,468.292917125,True
LSN114,2016_Nov_22_1525,,LL-Kramer,2,47,44,zerp,water,zipper,first_gen_imitation,0,0,627.679119818,True
LSN114,2016_Nov_22_1525,,LL-Kramer,2,48,40,boonk,tear,glass,first_gen_imitation,0,0,901.791201439,True
LSN114,2016_Nov_22_1525,,LL-Kramer,3,49,35,boonk,glass,glass,first_gen_imitation,1,1,1297.44571308,True
LSN114,2016_Nov_22_1525,,LL-Kramer,3,50,42,feeshefee,water,tear,first_gen_imitation,0,0,759.436136112,True
LSN114,2016_Nov_22_1525,,LL-Kramer,3,51,46,zerp,zipper,zipper,first_gen_imitation,1,1,432.55082937,True
LSN114,2016_Nov_22_1525,,LL-Kramer,3,52,42,glonglon,water,water,first_gen_imitation,1,1,726.155510638,True
LSN114,2016_Nov_22_1525,,LL-Kramer,3,53,46,zerp,zipper,zipper,first_gen_imitation,1,1,627.89005693,True
LSN114,2016_Nov_22_1525,,LL-Kramer,3,54,35,zerp,glass,zipper,first_gen_imitation,0,0,654.190886766,True
LSN114,2016_Nov_22_1525,,LL-Kramer,3,55,35,glonglon,glass,water,first_gen_imitation,0,0,749.708401505,True
LSN114,2016_Nov_22_1525,,LL-Kramer,3,56,46,glonglon,zipper,water,first_gen_imitation,0,0,609.723893926,True
LSN114,2016_Nov_22_1525,,LL-Kramer,3,57,38,glonglon,tear,water,first_gen_imitation,0,0,665.600352921,True
LSN114,2016_Nov_22_1525,,LL-Kramer,3,58,35,glonglon,glass,water,first_gen_imitation,0,0,591.819241177,True
LSN114,2016_Nov_22_1525,,LL-Kramer,3,59,42,boonk,water,glass,first_gen_imitation,0,0,1102.97007812,True
LSN114,2016_Nov_22_1525,,LL-Kramer,3,60,42,glonglon,water,water,first_gen_imitation,1,1,463.444573805,True
LSN114,2016_Nov_22_1525,,LL-Kramer,3,61,46,boonk,zipper,glass,first_gen_imitation,0,0,1001.62923802,True
LSN114,2016_Nov_22_1525,,LL-Kramer,3,62,46,zerp,zipper,zipper,first_gen_imitation,1,1,433.14074818,True
LSN114,2016_Nov_22_1525,,LL-Kramer,3,63,35,boonk,glass,glass,first_gen_imitation,1,1,528.966826387,True
LSN114,2016_Nov_22_1525,,LL-Kramer,3,64,42,zerp,water,zipper,first_gen_imitation,0,0,821.417917032,True
LSN114,2016_Nov_22_1525,,LL-Kramer,3,65,38,feeshefee,tear,tear,first_gen_imitation,1,1,435.118559748,True
LSN114,2016_Nov_22_1525,,LL-Kramer,3,66,38,zerp,tear,zipper,first_gen_imitation,0,0,437.69109156,True
LSN114,2016_Nov_22_1525,,LL-Kramer,3,67,46,boonk,zipper,glass,first_gen_imitation,0,0,511.020562612,True
LSN114,2016_Nov_22_1525,,LL-Kramer,3,68,38,boonk,tear,glass,first_gen_imitation,0,0,499.149531126,True
LSN114,2016_Nov_22_1525,,LL-Kramer,3,69,38,feeshefee,tear,tear,first_gen_imitation,1,1,468.968298752,True
LSN114,2016_Nov_22_1525,,LL-Kramer,3,70,42,glonglon,water,water,first_gen_imitation,1,1,2009.50175431,True
LSN114,2016_Nov_22_1525,,LL-Kramer,3,71,35,feeshefee,glass,tear,first_gen_imitation,0,0,572.516132612,True
LSN114,2016_Nov_22_1525,,LL-Kramer,3,72,38,feeshefee,tear,tear,first_gen_imitation,1,1,635.851556901,True
LSN114,2016_Nov_22_1525,,LL-Kramer,4,73,45,glonglon,water,water,first_gen_imitation,1,1,508.176597767,True
LSN114,2016_Nov_22_1525,,LL-Kramer,4,74,39,feeshefee,tear,tear,first_gen_imitation,1,1,1033.40321919,True
LSN114,2016_Nov_22_1525,,LL-Kramer,4,75,37,boonk,glass,glass,first_gen_imitation,1,1,508.335680701,True
LSN114,2016_Nov_22_1525,,LL-Kramer,4,76,39,feeshefee,tear,tear,first_gen_imitation,1,1,537.82584751,True
LSN114,2016_Nov_22_1525,,LL-Kramer,4,77,39,zerp,tear,zipper,first_gen_imitation,0,0,745.461499784,True
LSN114,2016_Nov_22_1525,,LL-Kramer,4,78,37,glonglon,glass,water,first_gen_imitation,0,0,648.686046712,True
LSN114,2016_Nov_22_1525,,LL-Kramer,4,79,45,glonglon,water,water,first_gen_imitation,1,1,607.696149033,True
LSN114,2016_Nov_22_1525,,LL-Kramer,4,80,45,glonglon,water,water,first_gen_imitation,1,1,587.945559528,True
LSN114,2016_Nov_22_1525,,LL-Kramer,4,81,37,feeshefee,glass,tear,first_gen_imitation,0,0,667.700437829,True
LSN114,2016_Nov_22_1525,,LL-Kramer,4,82,37,zerp,glass,zipper,first_gen_imitation,0,0,532.905485015,True
LSN114,2016_Nov_22_1525,,LL-Kramer,4,83,39,zerp,tear,zipper,first_gen_imitation,0,0,593.525939621,True
LSN114,2016_Nov_22_1525,,LL-Kramer,4,84,39,feeshefee,tear,tear,first_gen_imitation,1,1,593.375179451,True
LSN114,2016_Nov_22_1525,,LL-Kramer,4,85,37,zerp,glass,zipper,first_gen_imitation,0,0,624.225071631,True
LSN114,2016_Nov_22_1525,,LL-Kramer,4,86,45,boonk,water,glass,first_gen_imitation,0,0,1411.79357003,True
LSN114,2016_Nov_22_1525,,LL-Kramer,4,87,48,zerp,zipper,zipper,first_gen_imitation,1,1,520.953792613,True
LSN114,2016_Nov_22_1525,,LL-Kramer,4,88,45,feeshefee,water,tear,first_gen_imitation,0,0,555.228605401,True
LSN114,2016_Nov_22_1525,,LL-Kramer,4,89,48,feeshefee,zipper,tear,first_gen_imitation,0,0,1126.90227153,True
LSN114,2016_Nov_22_1525,,LL-Kramer,4,90,39,feeshefee,tear,tear,first_gen_imitation,1,1,591.552929487,True
LSN114,2016_Nov_22_1525,,LL-Kramer,4,91,48,boonk,zipper,glass,first_gen_imitation,0,0,459.052673075,True
LSN114,2016_Nov_22_1525,,LL-Kramer,4,92,48,zerp,zipper,zipper,first_gen_imitation,1,1,437.507682014,True
LSN114,2016_Nov_22_1525,,LL-Kramer,4,93,48,zerp,zipper,zipper,first_gen_imitation,1,1,757.131516933,True
LSN114,2016_Nov_22_1525,,LL-Kramer,4,94,37,boonk,glass,glass,first_gen_imitation,1,1,618.674139492,True
LSN114,2016_Nov_22_1525,,LL-Kramer,4,95,45,zerp,water,zipper,first_gen_imitation,0,0,801.001869142,True
LSN114,2016_Nov_22_1525,,LL-Kramer,4,96,48,feeshefee,zipper,tear,first_gen_imitation,0,0,505.391849671,True
